Sensor Model:   DIODE
Serial Number:  CDA005
Data Format:    2      (Volts/Kelvin)
SetPoint Limit: 320.      (Kelvin)
Temperature coefficient:  1 (Negative)
Number of Breakpoints:   158

No.   Units      Temperature (K)

1 	0.55662	320.550 
2 	0.57801	310.310 
3 	0.59946	300.000 
4 	0.6085	295.650 
5 	0.62024	290.000 
6 	0.64101	280.010 
7 	0.65514	273.153 
8 	0.66157	270.010 
9 	0.68215	259.960 
10 	0.7024	250.020 
11 	0.72267	240.000 
12 	0.74281	229.990 
13 	0.76273	220.000 
14 	0.781	210.600 
15 	0.80172	200.060 
16 	0.8115	195.010 
17 	0.82091	190.150 
18 	0.83042	185.240 
19 	0.84052	179.980 
20 	0.84954	175.190 
21 	0.85887	170.240 
22 	0.86807	165.370 
23 	0.87804	159.990 
24 	0.88733	154.998 
25 	0.89654	150.003 
26 	0.90537	145.160 
27 	0.91475	140.010 
28 	0.92371	135.019 
29 	0.93259	130.014 
30 	0.94145	125.010 
31 	0.95019	120.011 
32 	0.95884	115.020 
33 	0.96738	110.015 
34 	0.97595	105.020 
35 	0.98443	100.002 
36 	0.98866	97.467 
37 	0.99276	95.009 
38 	0.99697	92.480 
39 	1.00103	90.029 
40 	1.00507	87.521 
41 	1.00917	85.016 
42 	1.01315	82.529 
43 	1.01706	80.057 
44 	1.02126	77.337 
45 	1.02482	75.013 
46 	1.02836	72.496 
47 	1.03296	70.001 
48 	1.03671	67.498 
49 	1.04016	65.180 
50 	1.04408	62.498 
51 	1.04769	59.985 
52 	1.05053	57.970 
53 	1.0533	55.958 
54 	1.05602	53.966 
55 	1.05867	51.972 
56 	1.06129	49.974 
57 	1.06259	48.956 
58 	1.06352	47.984 
59 	1.06476	46.978 
60 	1.06605	45.954 
61 	1.06724	44.975 
62 	1.06843	43.998 
63 	1.06959	42.975 
64 	1.07081	41.949 
65 	1.07198	40.969 
66 	1.07304	40.018 
67 	1.07423	39.000 
68 	1.07539	37.942 
69 	1.07642	37.011 
70 	1.07762	35.925 
71 	1.07866	34.983 
72 	1.07975	33.965 
73 	1.0808	32.999 
74 	1.08188	32.005 
75 	1.08297	31.031 
76 	1.08407	30.037 
77 	1.08524	29.022 
78 	1.08647	27.984 
79 	1.08774	27.005 
80 	1.08917	25.995 
81 	1.09074	25.027 
82 	1.09266	24.030 
83 	1.09523	22.993 
84 	1.09869	22.000 
85 	1.11297	20.009 
86 	1.11906	19.495 
87 	1.12589	19.001 
88 	1.13323	18.487 
89 	1.14093	17.996 
90 	1.14894	17.494 
91 	1.15673	17.006 
92 	1.16447	16.504 
93 	1.17245	16.000 
94 	1.18069	15.495 
95 	1.18891	14.991 
96 	1.19726	14.494 
97 	1.20584	13.995 
98 	1.21461	13.503 
99 	1.22368	13.004 
100 	1.23315	12.495 
101 	1.24241	12.001 
102 	1.25227	11.493 
103 	1.26262	10.997 
104 	1.27327	10.497 
105 	1.28508	10.002 
106 	1.2903	9.794 
107 	1.29566	9.597 
108 	1.30115	9.406 
109 	1.30704	9.199 
110 	1.31318	9.001 
111 	1.3196	8.804 
112 	1.32646	8.601 
113 	1.33342	8.406 
114 	1.34107	8.199 
115 	1.34861	7.997 
116 	1.35646	7.797 
117 	1.36426	7.600 
118 	1.37236	7.397 
119 	1.38041	7.202 
120 	1.38848	7.000 
121 	1.39662	6.800 
122 	1.40467	6.601 
123 	1.41267	6.401 
124 	1.42068	6.196 
125 	1.42821	6.003 
126 	1.43598	5.798 
127 	1.44336	5.600 
128 	1.45054	5.401 
129 	1.45749	5.201 
130 	1.46436	5.003 
131 	1.46765	4.902 
132 	1.47097	4.799 
133 	1.47414	4.699 
134 	1.47719	4.598 
135 	1.48018	4.501 
136 	1.48327	4.401 
137 	1.48608	4.299 
138 	1.4881	4.230 
139 	1.48923	4.191 
140 	1.49439	4.001 
141 	1.49701	3.901 
142 	1.49956	3.800 
143 	1.50195	3.700 
144 	1.50422	3.600 
145 	1.50653	3.499 
146 	1.50874	3.400 
147 	1.51082	3.301 
148 	1.5129	3.201 
149 	1.51484	3.098 
150 	1.5166	3.002 
151 	1.51842	2.903 
152 	1.51892	2.863 
153 	1.51966	2.701 
154 	1.5237	2.623 
155 	1.52554	2.489 
156 	1.52793	2.369 
157 	1.52995 	2.240 
158 	1.53207 	2.114 
